Folder: Stretched-NMF/StretchedNMF_data+code/data/MgMnO_YCl

File: XRD_MgMnO_YCl_preprocessed.csv
0,0,0,0,0,0,0,0,0,0,0,0,0,0,0,0,0,0,0,0,0,0
12,0.10613,0,0,0,0,0,0,0,0,0,0,0,0,0,0,0,0,0,0,0,0
24,0.21226,0,0,0,0,0,0,0,0,0,0,0,0,0,0,0,0,0,0,0,0
36,0.31838,0,0,0,0,0,0,0,0,0,0,0,0,0,0,0,0,0,0,0,0
48,0.42451,0,0,0,0,0,0,0,0,0,0,0,0,0,0,0,0,0,0,0,0
60,0.53064,0,0,0.10558,0,0,0,0,0,0,0,0,0,0,0,0,0,0,0,0,0
72,0.63677,11.314,9.1355,26.009,15.381,23.663,21.381,13.999,27.821,6.0891,19.609,17.591,13.743,5.6414,8.042,5.1433,7.0869,5.4575,12.191,3.1577,6.7712
84,0.7429,0,0,0,0,0,0,0,0,0,0,0,0,0,0,0,0,0,0,0,0
96,0.84903,0,0,0,0,0,0,0,0,0,0,0,0,0,0,0,0,0,0,0,0
108,0.95515,300.81,273.76,478.34,405.42,441.06,521.48,396.04,686.26,225.54,330.71,457.92,422.74,291.67,326.07,308.12,334.97,290.33,521.3,240.98,367.2
120,1.0613,0,0,0,0,0,0,0,0,0,0,0,0,0,0,0,0,0,0,0,0
132,1.1674,0,0,0,0,0,0,0,0,0,0,0,0,0,0,0,0,0,0,0,0
144,1.2735,364.44,304.68,477.87,371.6,370.21,356.77,300.15,442.37,143.7,186.22,243.85,232.91,169.82,164.32,149.43,192.94,136.02,253.6,115.99,174.28
156,1.3797,0,0,0.034452,0,0,0,0,0,0.18895,0,0,0,0,0,0,0,0.83912,0,1.5489,0
168,1.4858,2.1593,8.6408,16.942,14.807,9.7882,2.9051,11.191,9.459,2.6101,4.8672,4.3667,5.3657,16.171,4.5816,12.282,5.2173,21.321,20.276,26.971,13.045
180,1.5919,1.0835,2.3484,7.2273,4.9731,3.0453,0,1.8583,1.586,0,0.36243,0.24098,0.66383,5.3855,0.68322,3.1547,0.28876,8.7188,8.4325,12.159,3.6221
192,1.6981,0,0,0,0,0,0,0,0,0,0,0,0,0,0,0,0,0,0,0,0
204,1.8042,0.078933,0,0,0,0,0,0,0.071316,0,0,0,0,0,0,0,0,0,0,0,0
216,1.9103,0.91395,0.8255,3.7989,4.0199,4.9525,8.8856,5.8399,15.599,2.072,4.5251,10.033,9.9833,6.1133,7.9999,7.5327,8.7035,7.3899,19.382,5.8338,11.052
228,2.0164,0,0,0,0,0,0,0,0,0,0,0,0,0,0,0,0,0,0.4831,0,0
240,2.1226,1.116,0.28562,2.9596,3.2536,3.0343,4.8419,4.6356,7.4775,1.9984,4.589,7.098,6.66,3.8832,3.1256,4.0467,5.8282,3.5348,9.1338,3.5435,6.1266
252,2.2287,33.334,18.096,33.065,21.632,18.863,21.148,12.525,21.115,4.4356,5.7718,10.059,7.9782,4.3577,4.4863,3.7746,4.2818,2.8076,7.8748,1.9549,4.4223
264,2.3348,1.3151,0,0.85944,0.90617,1.8035,2.4506,3.1561,7.6829,0.10602,1.8733,4.1873,3.5262,1.5671,3.6249,1.7461,3.5324,1.8879,6.7517,1.3553,3.2753
276,2.4409,264.23,189.86,332.98,238.77,231.95,257.04,171.3,288.28,75.786,100.37,156.02,134.31,83.698,92.039,79.152,88.412,70.08,139.89,54.56,90.164
288,2.5471,388.54,372.79,632.32,575.1,610.66,637.73,569.2,916.34,309.45,457.97,600.76,570.91,416.71,434.75,408.8,522.06,377.83,723.98,339.38,496.4
300,2.6532,24.887,18.823,29.057,17.504,18.128,14.337,9.4432,15.029,2.4493,3.2653,4.6524,5.0171,2.2771,1.8395,1.7329,2.7179,1.3985,4.8614,0.61152,2.2766
312,2.7593,0,0,0,0,0,0,0,0,0,0,0,0,0,0,0,0,0,0,0,0
324,2.8655,0,0,0,0,0,0,0,1.2817,0,0,0.91732,1.1817,0.12134,0.66817,0.62035,1.0493,0.86654,3.6281,0.57109,1.8718
336,2.9716,26.904,21.268,44.696,38.512,43.3,58.077,44.789,91.903,25.434,45.725,78.423,76.965,51.621,62.366,61.504,70.508,63.074,129.82,56.346,86.202
348,3.0777,72.742,58.748,83.267,60.375,59.622,53.598,44.093,65.286,18.313,24.042,32.35,30.047,21.071,26.404,17.788,23.717,15.821,60.056,12.31,20.928
360,3.1838,571.43,382.43,634.74,449.57,401.61,434.11,278.74,413.61,129.75,162.18,212.13,182.81,117.96,118.95,107.68,119.34,92.455,165.18,75.819,115.06
372,3.29,13.064,7.3127,20.109,10.514,11.476,12.213,6.7521,11.526,2.2422,3.6932,5.1703,3.6181,0.5175,0.30782,0,0,0,0,0,0
384,3.3961,0,0,0,0,0,0,0,0,0,0,0,0,0,0,0,0,0,0,0,0
396,3.5022,30.551,22.85,26.921,14.998,15.107,8.7266,6.0117,7.5601,0.77939,0.98608,1.4914,1.316,0.33931,0,0,0.059837,0,0.40147,0,0
408,3.6084,176.08,135.4,232.87,169.63,163.23,176.42,116.28,182.68,54.204,67.579,91.698,78.342,51.002,53.236,45.589,49.464,38.335,67.976,28.82,46.284
420,3.7145,77.044,84.816,157.73,151.28,185.88,226.71,194.11,348.52,124.76,191.17,275.64,267.4,195.05,224.94,214.01,235.53,206.22,368.79,177.54,257.71
432,3.8206,0.27011,0,0.2096,0,0,0,0,0,0,0,0,0,0,0,0,0,0,0,0,0
444,3.9267,0,0,0,0,0,0,0,0,0,0,0,0,0,0,0,0,0,0,0,0
456,4.0329,644.88,520.01,915.89,699.19,684.23,756.89,509.23,796.16,242.41,311.77,418.11,359.44,231.83,235.76,212.87,233.09,181.47,330.91,143.48,226.62
468,4.139,11.754,8.0725,23.245,15.005,18.07,20.436,14.041,37.624,0,6.3072,19.609,16.109,6.8102,11.597,8.287,14.043,7.5179,37.345,5.0116,17.234
480,4.2451,18.781,8.0692,26.499,17.446,16.373,24.995,18.291,44.093,9.7179,21.246,32.653,30.536,17.491,18.321,20.79,30.773,18.719,47.366,18.39,29.478
492,4.3513,18.554,13.402,21.408,13.496,12.859,11.857,7.6502,14.12,1.3825,2.5339,4.4045,3.3323,1.619,2.0712,0.41942,1.3756,0.0061274,2.8678,0,1.0642
504,4.4574,0,0,0,0,0,0,0,2.3015,0,0.36376,2.0035,2.1028,0.87963,1.237,1.5993,3.0606,1.8688,7.1768,1.7704,3.5458
516,4.5635,26.452,24.843,43.199,32.29,35.876,35.239,28.903,51.147,10.7,18.035,29.183,27.673,17.982,20.483,17.637,23.923,17.33,40.382,13.101,24.159
528,4.6696,4.8852,3.1223,3.9722,1.1205,0.88119,0,0,0,0,0,0,0,0,0,0,0,0,0,0,0
540,4.7758,0,0,0,0,0,0,0,0,0,0,0,0,0,0,0,0,0,0,0,0
552,4.8819,48.563,39.987,75.494,56.327,55.202,61.789,37.489,62.165,14.589,19.873,27.44,22.74,12.182,11.166,9.504,10.407,7.537,15.332,4.6749,9.656
564,4.988,2.2777,2.3717,9.488,8.3661,12.003,16.348,11.386,27.826,3.1813,8.418,15.806,13.401,6.3244,7.0335,6.0291,8.094,5.0499,13.414,1.915,8.7156
576,5.0942,0,0.60499,6.74,9.598,12.826,16.991,16.902,33.339,10.348,20.083,31.031,31.146,22.675,26.841,27.059,33.435,26.843,53.59,24.895,35.731
588,5.2003,51.473,52.354,111.07,99.497,115.06,141.97,106.81,193.63,56.039,85.313,122.6,109.8,71.601,79.126,70.372,80.146,64.086,124.43,49.56,81.929
600,5.3064,0,0,4.2153,0.60235,1.687,5.2291,5.6283,17.35,3.7906,6.9143,9.7165,10.125,7.8815,7.4454,8.6793,12.224,8.1343,17.394,7.8158,11.908
612,5.4125,0,1.7419,7.5148,8.4757,15.247,23.31,20.541,48.725,14.1,24.324,39.467,38.383,26.05,31.54,30.038,32.485,28.279,57.393,23.963,37.585
624,5.5187,7.2138,6.7463,13.09,12.194,12.147,12.866,11.242,17.874,5.0346,7.4982,10.1,9.3753,6.5598,6.6233,5.8903,7.7759,4.9234,10.503,4.0827,6.8086
636,5.6248,19.165,19.131,34.964,32.788,33.453,35.45,30.888,47.53,15.054,20.536,25.853,24.398,17.598,16.582,15.338,20.479,13.785,25.662,11.455,18.277
648,5.7309,0.42115,0.22995,0.85246,0.24553,0,0,0,0,0,0,0,0,0,0.66907,0.89878,0.81458,1.3278,3.6235,0.88015,2.2451
660,5.8371,45.278,46.205,87.045,75.885,80.081,89.399,67.505,110.46,32.282,45.342,59.713,54.986,35.555,36.758,33.31,41.848,30.054,58.061,24.266,41.123
672,5.9432,2.4045,3.1019,7.7105,8.1945,11.54,14.613,13.769,27.783,7.8687,15.077,22.426,22.293,15.202,17.363,17.146,21.223,16.504,33.996,14.466,23.643
684,6.0493,82.542,60.457,110.74,74.94,66.629,71.784,40.507,63.683,14.065,17.376,23.933,18.729,9.0403,8.7881,7.1441,7.5064,5.1976,12.374,3.0643,7.1312
696,6.1554,0,0,0,0,0,0,0,3.5094,0,2.1022,4.6451,4.8544,2.6454,2.8141,3.7931,5.4495,4.0547,12.866,3.7333,6.5793
708,6.2616,0,0,0,0,0,0,0,0,0,0,0,0,0,0,0,0,0,0,0,0
720,6.3677,5.5203,2.1928,4.0426,0,0,0,0,0,0,0,0,0,0,0,0,0,0,0.90073,0,0
732,6.4738,3.3921,1.4332,6.4949,3.6297,3.5574,5.326,2.7467,7.8646,0,1.078,2.8343,2.0402,0.29584,0.56796,0.46908,0.58623,0,2.1216,0,0.63115
744,6.5799,0,0,0,0,0,0,0,0,0,0,0,0,0,0,0,0,0,0,0,0
756,6.6861,4.8888,3.1672,8.5597,5.215,6.9301,8.2516,6.8878,18.954,1.2794,6.8605,14.36,14.621,8.8952,12.669,11.44,13.565,11.574,26.781,9.1298,16.978
768,6.7922,0.2886,1.4121,5.8715,6.1203,8.3424,11.897,8.0969,18.19,4.7326,7.1806,10.908,9.743,5.6324,6.6796,5.3097,5.331,4.1789,7.6386,3.3115,5.5443
780,6.8983,11.896,10.475,27.018,20.566,27.997,34.231,25.755,56.172,9.7144,20.747,35.529,33.126,18.599,23.073,20.245,23.818,18.858,44.808,13.87,26.999
792,7.0045,0,0,0,0,1.1474,2.3509,1.9556,5.8292,1.2105,2.7339,3.7672,3.7469,2.1937,2.4189,1.963,1.9575,1.7763,3.7734,1.0776,2.5676
804,7.1106,3.1304,0.15817,1.3097,0,0,0,0,0,0,0,0,0,0,0,0,0,0,0,0,0
816,7.2167,3.47,2.5744,11.73,11.333,12.131,16.026,12.164,23.195,4.8336,7.7331,10.953,9.8502,5.5205,4.3441,4.1388,6.0324,3.2296,7.6253,2.6704,4.7011
828,7.3228,1.0937,0,0,0,0,0,0,0,0,0,0,0,0,0,0,0,0,0,0,0
840,7.429,35.072,33.592,60.484,52.078,52.267,53.605,44.056,69.264,20.985,28.903,38.332,35.12,24.666,25.288,20.498,27.303,18.249,36.262,14.725,24.365
852,7.5351,0,0,0.26507,0.72908,1.4662,2.192,3.0538,7.3606,1.2827,3.9424,7.6984,7.9347,5.2695,6.0346,6.2609,7.296,5.9836,14.214,4.5614,9.006
864,7.6412,0,0,0,0,0,0,0,0,0,0,1.1578,1.5707,0.64916,1.669,1.9329,2.4644,2.5566,6.9842,2.2624,4.0291
876,7.7474,3.0263,1.6545,4.2202,2.1133,1.6221,1.3872,0.16681,0.30892,0,0,0,0,0,0,0,0,0,0,0,0
888,7.8535,0,0,0,0,0,0,0,0,0,0,0,0,0,0,0,0,0,0,0,0
900,7.9596,0,0,0,0,0,0,0,0.52487,0,0.031323,0.093663,0.0675,0.044657,0.14927,0,0,0,0,0,0
912,8.0657,0,0,0,0,1.5973,3.349,2.9073,10.265,2.0892,4.2212,7.7403,7.0937,4.7493,5.5794,5.2988,5.4774,4.3944,10.267,2.8578,6.1157
924,8.1719,5.1283,1.162,1.2294,0,0,0.28276,0.26671,8.4592,1.2027,2.753,4.5772,4.4572,2.8705,3.538,3.5658,3.7976,3.0822,8.5721,2.2419,4.299
936,8.278,0,0,0,0,0,0,0,0,0,0,0,0,0,0,0,0,0,0,0,0
948,8.3841,0,0,0.19448,0.76055,2.5906,3.4156,3.0968,9.5249,1.9611,5.2024,8.3174,8.1644,4.8434,6.061,6.3381,6.6834,5.0809,13.007,4.4477,8.5522
960,8.4903,0,0,0,0,0,0,0,0,0,0,0,0,0,0,0,0,0,0,0,0
972,8.5964,3.688,1.0345,3.0327,0.48979,0,0,0,0,0,0,0,0,0,0,0,0.15193,0.55508,2.0669,0,0.73426
984,8.7025,0,0,0,0,0,0,0,0,0,0,0,0,0,0,0,0,0,0,0,0
996,8.8086,3.4163,2.5938,7.4018,4.5973,4.9417,6.1955,2.0308,9.1101,0,0,0.027537,0,0,0,0,0,0,0.50604,0,0
1008,8.9148,0.38006,0.5583,0.26428,0.86076,0.15335,0.41825,0.20342,0.091697,0,0,0,0,0,0,0,0,0,0,0,0
1020,9.0209,0,0,0,0,0,0,0,0,0,0,0,0.0054002,0,1.185,1.151,0.79935,0.39946,1.9659,0.57285,0.68044
1032,9.127,0,0.10622,0.48877,0.58099,4.9595,4.7845,4.5178,8.9654,1.1481,2.8233,4.1015,2.9511,2.121,2.8603,0.56753,2.0168,0.93067,3.793,0,2.5643
1044,9.2332,1.5323,1.3585,1.6548,2.1933,3.4015,5.5112,1.9595,1.0257,2.7613,2.2484,0,0.41432,0.72166,0,1.8164,2.4015,1.2755,1.6222,0.55051,1.0265
1051,9.2951,0,0,0,0,0,0,0,0,0,0,0,0,0,0,0,0,0,0,0,0